Sensor Model:   Rox
Serial Number:  Rox-WMI aad4
Data Format:    4      (Log Ohms vs. Kelvin)
SetPoint Limit: 6.1      (Kelvin)
Temperature coefficient:  1 (Negative)
Number of Breakpoints:   149

No.   Units      Temperature (K)

  1  3.43976        6.12676
  2  3.43979        6.12216
  3  3.43980        5.87627
  4  3.44367        5.85151
  5  3.44371        5.85073
  6  3.44372        5.62088
  7  3.44799        5.56991
  8  3.44800        5.56624
  9  3.45212        5.30404
 10  3.45218        5.30382
 11  3.45612        5.06354
 12  3.45617        5.06093
 13  3.46064        4.81716
 14  3.46078        4.81431
 15  3.46500        4.59024
 16  3.46507        4.58910
 17  3.46978        4.36233
 18  3.46978        4.36069
 19  3.47471        4.13098
 20  3.47474        4.13086
 21  3.47919        3.94037
 22  3.47927        3.93904
 23  3.48454        3.73234
 24  3.48455        3.73198
 25  3.48970        3.54197
 26  3.48972        3.54114
 27  3.49461        3.37094
 28  3.49474        3.37031
 29  3.50003        3.19979
 30  3.50006        3.19869
 31  3.50575        3.03296
 32  3.50576        3.03278
 33  3.51111        2.88236
 34  3.51123        2.88079
 35  3.51698        2.73427
 36  3.51704        2.73231
 37  3.52295        2.59201
 38  3.52299        2.59075
 39  3.52865        2.46027
 40  3.52870        2.45965
 41  3.53487        2.33482
 42  3.53493        2.33464
 43  3.54120        2.21455
 44  3.54126        2.21352
 45  3.54735        2.10338
 46  3.54736        2.10338
 47  3.55406        1.99211
 48  3.55416        1.99119
 49  3.56059        1.89111
 50  3.56729        1.79479
 51  3.57422        1.70258
 52  3.58127        1.61501
 53  3.58815        1.53560
 54  3.59546        1.45714
 55  3.60315        1.38242
 56  3.61062        1.31201
 57  3.61844        1.24588
 58  3.62613        1.18300
 59  3.63414        1.12306
 60  3.64195        1.06731
 61  3.65057        1.01282
 62  3.65859        0.96261
 63  3.66728        0.91451
 64  3.67602        0.86786
 65  3.68490        0.82458
 66  3.69387        0.78344
 67  3.70378        0.74162
 68  3.71277        0.70556
 69  3.72240        0.67029
 70  3.73214        0.63621
 71  3.74170        0.60543
 72  3.75183        0.57474
 73  3.76223        0.54657
 74  3.77234        0.51942
 75  3.78293        0.49336
 76  3.79385        0.46893
 77  3.80466        0.44563
 78  3.81554        0.42373
 79  3.82713        0.40237
 80  3.83846        0.38241
 81  3.85024        0.36331
 82  3.86210        0.34537
 83  3.87448        0.32803
 84  3.88649        0.31167
 85  3.89899        0.29564
 86  3.91187        0.28105
 87  3.92494        0.26700
 88  3.93798        0.25375
 89  3.95161        0.24105
 90  3.96510        0.22907
 91  3.97907        0.21764
 92  3.99331        0.20681
 93  4.00813        0.19645
 94  4.02267        0.18659
 95  4.03778        0.17727
 96  4.05268        0.16841
 97  4.06822        0.15995
 98  4.08419        0.15197
 99  4.10027        0.14432
100  4.11655        0.13707
101  4.13324        0.13027
102  4.15028        0.12370
103  4.16726        0.11751
104  4.18510        0.11161
105  4.20320        0.10596
106  4.22158        0.10062
107  4.24018        0.09557
108  4.25932        0.09077
109  4.27824        0.08628
110  4.29830        0.08194
111  4.31874        0.07782
112  4.33910        0.07389
113  4.36007        0.07020
114  4.38155        0.06667
115  4.40379        0.06332
116  4.42587        0.06016
117  4.44864        0.05714
118  4.47194        0.05428
119  4.49597        0.05155
120  4.52013        0.04897
121  4.54512        0.04652
122  4.57072        0.04418
123  4.59681        0.04196
124  4.62345        0.03986
125  4.65057        0.03784
126  4.67836        0.03597
127  4.70699        0.03415
128  4.71762        0.03356
129  4.73473        0.03254
130  4.75058        0.03168
131  4.76481        0.03087
132  4.78092        0.03005
133  4.79550        0.02931
134  4.81155        0.02853
135  4.8265         0.02786
136  4.84329        0.02713
137  4.85837        0.02645
138  4.87456        0.02579
139  4.88958        0.02518
140  4.90661        0.02453
141  4.92254        0.02394
142  4.93900        0.02338
143  4.95673        0.02275
144  4.97101        0.02232
145  4.99040        0.02165
146  5.00179        0.02128
147  5.01206        0.02107
148  5.02976        0.02051
149  5.04042        0.02025