Sensor Model:   Speer Leiden Cryogenics
Serial Number:  S9905
Data Format:    4      (Log Ohms/Kelvin)
SetPoint Limit: 4.0      (Kelvin)
Temperature coefficient:  1 (Negative)
Number of Breakpoints:   118

No.   Units      Temperature (K)
  1  2.85576        4.92908
  2  2.86100        4.60150
  3  2.86641        4.29054
  4  2.87198        4.00357
  5  2.87772        3.73975
  6  2.88383        3.48014
  7  2.89009        3.24661
  8  2.89664        3.02542
  9  2.90276        2.83990
 10  2.91036        2.63594
 11  2.91703        2.46895
 12  2.92500        2.29646
 13  2.93263        2.14524
 14  2.94062        2.00509
 15  2.94944        1.86549
 16  2.95789        1.74558
 17  2.96750        1.62436
 18  2.97667        1.52034
 19  2.98717        1.41379
 20  2.99769        1.31725
 21  3.00805        1.23260
 22  3.01949        1.14907
 23  3.03100        1.07270
 24  3.03145        1.07025
 25  3.04383        0.99734
 26  3.05408        0.94050
 27  3.06472        0.88884
 28  3.07595        0.83642
 29  3.08647        0.79338
 30  3.09767        0.74793
 31  3.10981        0.70422
 32  3.12231        0.66431
 33  3.13354        0.62906
 34  3.14631        0.59272
 35  3.15939        0.55880
 36  3.17292        0.52777
 37  3.18645        0.49783
 38  3.20118        0.46968
 39  3.21582        0.44401
 40  3.23150        0.41794
 41  3.24697        0.39443
 42  3.26174        0.37240
 43  3.27830        0.35171
 44  3.29469        0.33187
 45  3.31091        0.31320
 46  3.32777        0.29505
 47  3.34498        0.27836
 48  3.36211        0.26294
 49  3.37985        0.24798
 50  3.39759        0.23409
 51  3.41564        0.22090
 52  3.43377        0.20872
 53  3.45286        0.19650
 54  3.47290        0.18545
 55  3.49304        0.17501
 56  3.51348        0.16520
 57  3.53364        0.15603
 58  3.55570        0.14669
 59  3.57611        0.13896
 60  3.59737        0.13115
 61  3.62170        0.12334
 62  3.64395        0.11655
 63  3.66699        0.11004
 64  3.69197        0.10386
 65  3.71800        0.09743
 66  3.74288        0.09237
 67  3.77262        0.08707
 68  3.79246        0.08263
 69  3.82549        0.07735
 70  3.84837        0.07379
 71  3.87691        0.06953
 72  3.90789        0.06517
 73  3.93922        0.06168
 74  3.97016        0.05996
 75  3.97786        0.05811
 76  3.97896        0.05791
 77  4.00225        0.05714
 78  4.02841        0.05496
 79  4.06904        0.05217
 80  4.09726        0.05022
 81  4.10346        0.05010
 82  4.09213        0.04973
 83  4.11555        0.04714
 84  4.13897        0.04469
 85  4.16239        0.04236
 86  4.16394        0.04016
 87  4.20039        0.03807
 88  4.23151        0.03608
 89  4.25898        0.03421
 90  4.28438        0.03243
 91  4.30977        0.03074
 92  4.33517        0.02914
 93  4.36057        0.02762
 94  4.38529        0.02618
 95  4.40856        0.02482
 96  4.43888        0.02353
 97  4.45275        0.02231
 98  4.44971        0.02114
 99  4.48747        0.02004
100  4.50093        0.01900
101  4.50276        0.01801
102  4.51433        0.01707
103  4.53269        0.01619
104  4.55105        0.01534
105  4.56941        0.01454
106  4.58778        0.01379
107  4.60614        0.01307
108  4.62450        0.01239
109  4.64286        0.01174
110  4.66122        0.01113
111  4.67958        0.01055
112  4.69795        0.01000
113  4.70074        0.00948
114  4.70211        0.00899
115  4.70347        0.00852
116  4.70484        0.00808
117  4.70620        0.00766
118  4.70757        0.00726
